'IUE_ABS'
'LWP,LAP,HIRES,GPHOT:  1988.'
1.0E-14   12.0  -0.011
49  0   0   0
 1900.0    1678.72
 1925.0    1073.60
 1950.0     666.11
 1975.0     486.13
 2000.0     411.42
 2025.0     361.86
 2050.0     322.17
 2075.0     297.84
 2100.0     278.32
 2125.0     262.58
 2150.0     253.35
 2175.0     248.70
 2200.0     245.07
 2225.0     233.12
 2250.0     214.35
 2275.0     193.96
 2300.0     176.76
 2325.0     157.91
 2350.0     140.54
 2375.0     124.14
 2400.0     111.59
 2425.0     100.63
 2450.0      92.86
 2475.0      85.58
 2500.0      79.20
 2525.0      72.03
 2550.0      65.75
 2575.0      61.21
 2600.0      58.37
 2625.0      55.40
 2650.0      52.22
 2675.0      49.82
 2700.0      48.72
 2725.0      47.63
 2750.0      46.76
 2775.0      46.41
 2800.0      46.56
 2825.0      47.20
 2850.0      47.72
 2875.0      48.61
 2900.0      50.05
 2925.0      52.42
 2950.0      55.58
 2975.0      60.25
 3000.0      66.31
 3025.0      74.89
 3050.0      85.63
 3075.0     100.17 
 3100.0     118.19

# Title:     LWp,HIRES Absolute Flux Calibration.
# From:      Cassatella et al. 1988, ESA IUE Newsletter, No. 31,13
#            12, plus calibration factor C from LWR/LWP calibration of
#	     Cassatella, et al. 1988 ESA IUE Newsletter No. 31,7
# Contents:  (LABEL, NABS, SCALE, THDA, DFNDT
             (WABS(I),DFDFN(I),I=1,NABS)
#            Wavelengths above 2000 A are "Air".
# End:
